Freq(MHz),Loss
500,12.7
800,12.9
900,12.9
1000,13
1100,13
1400,13.2
1500,13.3
1600,13.3
1700,13.3
1800,13.4
2000,13.5
2100,13.5
2200,13.5
2300,13.5
2500,13.6
3000,13.7
3300,13.9
3500,14
3800,14.1
3900,14.1
4000,14.2
4200,14.3
4400,14.4
5000,14.7
5200,14.7
5500,14.8
6000,15.5
