Freq(MHz),Loss
500,12.5
800,12.7
900,12.7
1000,12.8
1100,12.8
1400,13
1500,13.1
1600,13.1
1700,13.1
1800,13.2
2000,13.3
2100,13.3
2200,13.3
2300,13.3
2500,13.4
3000,13.5
3300,13.7
3500,13.8
3800,13.9
3900,13.9
4000,14
4200,14.1
4400,14.2
5000,14.5
5200,14.5
5500,14.6
6000,15.3
